Vid1,Vid2,trials.thisRepN,trials.thisTrialN,trials.thisN,trials.thisIndex,START_key.keys,START_key.rt,START_key.started,START_key.stopped,visual_key.keys,visual_key.rt,sem_key.keys,sem_key.rt,pass_loop.keys,end_resp.keys,end_resp.rt,end_resp.started,end_resp.stopped,participant,session,date,expName,psychopyVersion,frameRate
,,,,,,space,1.78791906,0.016298902,None,,,,,,,,,,HNS002,1,2022_Nov_16_1627,Rating-signs,2021.2.3,None
Sign_Stimuli/Stim3VCM.mp4,Sign_Stimuli/Stim1VCM.mp4,0,0,0,0,,,,,['2'],[11.725940648990218],['1'],[15.705672881013015],None,,,,,HNS002,1,2022_Nov_16_1627,Rating-signs,2021.2.3,None
Sign_Stimuli/Stim1SCF.mp4,Sign_Stimuli/Stim2M.mp4,0,1,1,1,,,,,['1'],[4.1147499380022055],['1'],[4.410183584011975],None,,,,,HNS002,1,2022_Nov_16_1627,Rating-signs,2021.2.3,None
Sign_Stimuli/Stim1F.mp4,Sign_Stimuli/Stim3SCF.mp4,0,2,2,2,,,,,['1'],[2.4227655160066206],['1'],[7.073667365999427],None,,,,,HNS002,1,2022_Nov_16_1627,Rating-signs,2021.2.3,None
Sign_Stimuli/Stim3M.mp4,Sign_Stimuli/Stim2VCF.mp4,0,3,3,3,,,,,['1'],[2.228429529001005],['1'],[13.594430206998368],None,,,,,HNS002,1,2022_Nov_16_1627,Rating-signs,2021.2.3,None
Sign_Stimuli/Stim1SCM.mp4,Sign_Stimuli/Stim3F.mp4,0,4,4,4,,,,,['1'],[5.1218916259967955],['1'],[10.10986413298815],None,,,,,HNS002,1,2022_Nov_16_1627,Rating-signs,2021.2.3,None
Sign_Stimuli/Stim3VCF.mp4,Sign_Stimuli/Stim3VCM.mp4,0,5,5,5,,,,,['7'],[22.123972561996197],['5'],[10.634233780991053],None,,,,,HNS002,1,2022_Nov_16_1627,Rating-signs,2021.2.3,None
Sign_Stimuli/Stim2M.mp4,Sign_Stimuli/Stim2SCF.mp4,0,6,6,6,,,,,['2'],[5.355667502997676],['2'],[9.717931512001087],None,,,,,HNS002,1,2022_Nov_16_1627,Rating-signs,2021.2.3,None
Sign_Stimuli/Stim2VCM.mp4,Sign_Stimuli/Stim3VCM.mp4,0,7,7,7,,,,,['2'],[4.289246540007298],['1'],[5.844076381996274],None,,,,,HNS002,1,2022_Nov_16_1627,Rating-signs,2021.2.3,None
Sign_Stimuli/Stim3VCF.mp4,Sign_Stimuli/Stim2VCF.mp4,0,8,8,8,,,,,['1'],[1.2763699339993764],['1'],[1.5208666040125536],None,,,,,HNS002,1,2022_Nov_16_1627,Rating-signs,2021.2.3,None
Sign_Stimuli/Stim3VCF.mp4,Sign_Stimuli/Stim3F.mp4,0,9,9,9,,,,,['6'],[10.701280807988951],['5'],[1.699184733995935],None,,,,,HNS002,1,2022_Nov_16_1627,Rating-signs,2021.2.3,None
Sign_Stimuli/Stim2F.mp4,Sign_Stimuli/Stim2VCF.mp4,0,10,10,10,,,,,['7'],[2.673342331996537],['7'],[0.8293525080080144],None,,,,,HNS002,1,2022_Nov_16_1627,Rating-signs,2021.2.3,None
Sign_Stimuli/Stim1SCF.mp4,Sign_Stimuli/Stim3SCF.mp4,0,11,11,11,,,,,['1'],[9.27406542999961],['1'],[1.4842926810088102],None,,,,,HNS002,1,2022_Nov_16_1627,Rating-signs,2021.2.3,None
Sign_Stimuli/Stim3SCM.mp4,Sign_Stimuli/Stim1M.mp4,0,12,12,12,,,,,['1'],[0.0975407080113655],['1'],[1.672718193003675],None,,,,,HNS002,1,2022_Nov_16_1627,Rating-signs,2021.2.3,None
Sign_Stimuli/Stim2SCM.mp4,Sign_Stimuli/Stim3VCF.mp4,0,13,13,13,,,,,['1'],[8.175749057991197],['1'],[2.7589374009985477],None,,,,,HNS002,1,2022_Nov_16_1627,Rating-signs,2021.2.3,None
Sign_Stimuli/Stim1VCF.mp4,Sign_Stimuli/Stim1SCM.mp4,0,14,14,14,,,,,['3'],[4.276118416004465],['2'],[6.971434806007892],None,,,,,HNS002,1,2022_Nov_16_1627,Rating-signs,2021.2.3,None
Sign_Stimuli/Stim2SCF.mp4,Sign_Stimuli/Stim3M.mp4,0,15,15,15,,,,,['1'],[1.2295215820049634],['1'],[0.21294541298993863],None,,,,,HNS002,1,2022_Nov_16_1627,Rating-signs,2021.2.3,None
Sign_Stimuli/Stim3M.mp4,Sign_Stimuli/Stim3VCM.mp4,0,16,16,16,,,,,['6'],[9.347205530997599],['5'],[2.7077980890026083],None,,,,,HNS002,1,2022_Nov_16_1627,Rating-signs,2021.2.3,None
Sign_Stimuli/Stim3SCM.mp4,Sign_Stimuli/Stim1SCF.mp4,0,17,17,17,,,,,['1'],[6.263494692000677],['1'],[0.566672668006504],None,,,,,HNS002,1,2022_Nov_16_1627,Rating-signs,2021.2.3,None
Sign_Stimuli/Stim3F.mp4,Sign_Stimuli/Stim3VCM.mp4,0,18,18,18,,,,,['6'],[4.682170993997715],['5'],[1.1593166300008306],None,,,,,HNS002,1,2022_Nov_16_1627,Rating-signs,2021.2.3,None
Sign_Stimuli/Stim1F.mp4,Sign_Stimuli/Stim1VCM.mp4,0,19,19,19,,,,,['5'],[10.263007586996537],['5'],[6.690908511009184],None,,,,,HNS002,1,2022_Nov_16_1627,Rating-signs,2021.2.3,None
Sign_Stimuli/Stim1VCF.mp4,Sign_Stimuli/Stim1M.mp4,0,20,20,20,,,,,['6'],[4.164063827993232],['5'],[1.3070498809975106],None,,,,,HNS002,1,2022_Nov_16_1627,Rating-signs,2021.2.3,None
Sign_Stimuli/Stim1VCF.mp4,Sign_Stimuli/Stim3SCM.mp4,0,21,21,21,,,,,['1'],[1.519449366009212],['1'],[1.3371132489992306],None,,,,,HNS002,1,2022_Nov_16_1627,Rating-signs,2021.2.3,None
Sign_Stimuli/Stim1SCF.mp4,Sign_Stimuli/Stim1F.mp4,0,22,22,22,,,,,['2'],[2.552162371997838],['1'],[1.9548140380065888],None,,,,,HNS002,1,2022_Nov_16_1627,Rating-signs,2021.2.3,None
Sign_Stimuli/Stim2SCF.mp4,Sign_Stimuli/Stim1M.mp4,0,23,23,23,,,,,['1'],[1.958811851000064],['1'],[1.0508612060075393],None,,,,,HNS002,1,2022_Nov_16_1627,Rating-signs,2021.2.3,None
Sign_Stimuli/Stim3F.mp4,Sign_Stimuli/Stim3SCM.mp4,0,24,24,24,,,,,['1'],[0.34462538600200787],['1'],[0.6051297740050359],None,,,,,HNS002,1,2022_Nov_16_1627,Rating-signs,2021.2.3,None
Sign_Stimuli/Stim2VCM.mp4,Sign_Stimuli/Stim3M.mp4,0,25,25,25,,,,,['1'],[7.266371735997382],['1'],[0.40192778399796225],None,,,,,HNS002,1,2022_Nov_16_1627,Rating-signs,2021.2.3,None
Sign_Stimuli/Stim2SCF.mp4,Sign_Stimuli/Stim3SCF.mp4,0,26,26,26,,,,,['1'],[3.2850899170007324],['1'],[2.278945184996701],None,,,,,HNS002,1,2022_Nov_16_1627,Rating-signs,2021.2.3,None
Sign_Stimuli/Stim1VCF.mp4,Sign_Stimuli/Stim2VCM.mp4,0,27,27,27,,,,,['1'],[6.111974740997539],['1'],[0.19821182001032867],None,,,,,HNS002,1,2022_Nov_16_1627,Rating-signs,2021.2.3,None
Sign_Stimuli/Stim2M.mp4,Sign_Stimuli/Stim3F.mp4,0,28,28,28,,,,,['1'],[0.07392206799704581],['1'],[1.7538355540018529],None,,,,,HNS002,1,2022_Nov_16_1627,Rating-signs,2021.2.3,None
Sign_Stimuli/Stim3VCM.mp4,Sign_Stimuli/Stim1SCM.mp4,0,29,29,29,,,,,['2'],[0.02979475900065154],['1'],[6.353727784997318],None,,,,,HNS002,1,2022_Nov_16_1627,Rating-signs,2021.2.3,None
Sign_Stimuli/Stim3VCF.mp4,Sign_Stimuli/Stim3M.mp4,0,30,30,30,,,,,['6'],[3.3290878550033085],['5'],[0.45902515400666744],None,,,,,HNS002,1,2022_Nov_16_1627,Rating-signs,2021.2.3,None
Sign_Stimuli/Stim1VCF.mp4,Sign_Stimuli/Stim2F.mp4,0,31,31,31,,,,,['1'],[0.7243419610022102],['1'],[2.366511651009205],None,,,,,HNS002,1,2022_Nov_16_1627,Rating-signs,2021.2.3,None
Sign_Stimuli/Stim3SCM.mp4,Sign_Stimuli/Stim2SCM.mp4,0,32,32,32,,,,,['1'],[4.175964231006219],['1'],[0.28666542599967215],None,,,,,HNS002,1,2022_Nov_16_1627,Rating-signs,2021.2.3,None
Sign_Stimuli/Stim3SCF.mp4,Sign_Stimuli/Stim3VCM.mp4,0,33,33,33,,,,,['1'],[3.3281267389975255],['1'],[0.2579360290110344],None,,,,,HNS002,1,2022_Nov_16_1627,Rating-signs,2021.2.3,None
Sign_Stimuli/Stim1M.mp4,Sign_Stimuli/Stim3VCF.mp4,0,34,34,34,,,,,['1'],[0.2620503279904369],['1'],[1.8822542330017313],None,,,,,HNS002,1,2022_Nov_16_1627,Rating-signs,2021.2.3,None
Sign_Stimuli/Stim1F.mp4,Sign_Stimuli/Stim2SCF.mp4,0,35,35,35,,,,,['3'],[20.32649082900025],['3'],[5.335958191993996],None,,,,,HNS002,1,2022_Nov_16_1627,Rating-signs,2021.2.3,None
Sign_Stimuli/Stim3SCM.mp4,Sign_Stimuli/Stim1F.mp4,0,36,36,36,,,,,['1'],[1.9111845989973517],['1'],[1.073395358005655],None,,,,,HNS002,1,2022_Nov_16_1627,Rating-signs,2021.2.3,None
Sign_Stimuli/Stim3M.mp4,Sign_Stimuli/Stim1VCF.mp4,0,37,37,37,,,,,['2'],[3.108135187998414],['1'],[1.2477513499907218],None,,,,,HNS002,1,2022_Nov_16_1627,Rating-signs,2021.2.3,None
Sign_Stimuli/Stim3VCM.mp4,Sign_Stimuli/Stim2SCM.mp4,0,38,38,38,,,,,['1'],[1.8650727569911396],['1'],[5.512142271996709],None,,,,,HNS002,1,2022_Nov_16_1627,Rating-signs,2021.2.3,None
Sign_Stimuli/Stim3VCF.mp4,Sign_Stimuli/Stim3SCF.mp4,0,39,39,39,,,,,['2'],[1.8961347190052038],['2'],[5.230772765004076],None,,,,,HNS002,1,2022_Nov_16_1627,Rating-signs,2021.2.3,None
Sign_Stimuli/Stim1SCM.mp4,Sign_Stimuli/Stim3SCF.mp4,0,40,40,40,,,,,['1'],[3.165376273987931],['1'],[0.31499888499092776],None,,,,,HNS002,1,2022_Nov_16_1627,Rating-signs,2021.2.3,None
Sign_Stimuli/Stim1SCM.mp4,Sign_Stimuli/Stim3M.mp4,0,41,41,41,,,,,['1'],[0.8747239580116002],['1'],[0.30343356099911034],None,,,,,HNS002,1,2022_Nov_16_1627,Rating-signs,2021.2.3,None
Sign_Stimuli/Stim2F.mp4,Sign_Stimuli/Stim1VCM.mp4,0,42,42,42,,,,,['1'],[4.453472634006175],['1'],[5.6341954300005455],None,,,,,HNS002,1,2022_Nov_16_1627,Rating-signs,2021.2.3,None
Sign_Stimuli/Stim3F.mp4,Sign_Stimuli/Stim1F.mp4,0,43,43,43,,,,,['1'],[4.177100371991401],['1'],[2.4893737000093097],None,,,,,HNS002,1,2022_Nov_16_1627,Rating-signs,2021.2.3,None
Sign_Stimuli/Stim1VCM.mp4,Sign_Stimuli/Stim3SCF.mp4,0,44,44,44,,,,,['1'],[0.8615608710097149],['1'],[0.5258885249932064],None,,,,,HNS002,1,2022_Nov_16_1627,Rating-signs,2021.2.3,None
Sign_Stimuli/Stim2M.mp4,Sign_Stimuli/Stim1SCM.mp4,0,45,45,45,,,,,['1'],[4.205951577008818],['1'],[0.22692771400033962],None,,,,,HNS002,1,2022_Nov_16_1627,Rating-signs,2021.2.3,None
Sign_Stimuli/Stim2VCF.mp4,Sign_Stimuli/Stim2SCF.mp4,0,46,46,46,,,,,['2'],[2.5543503600056283],['1'],[1.9261769730073866],None,,,,,HNS002,1,2022_Nov_16_1627,Rating-signs,2021.2.3,None
Sign_Stimuli/Stim2SCF.mp4,Sign_Stimuli/Stim3VCM.mp4,0,47,47,47,,,,,['2'],[6.074842305999482],['1'],[3.9673953570018057],None,,,,,HNS002,1,2022_Nov_16_1627,Rating-signs,2021.2.3,None
Sign_Stimuli/Stim2VCM.mp4,Sign_Stimuli/Stim2M.mp4,0,48,48,48,,,,,['7'],[30.174854932003655],['7'],[0.45711658099025954],None,,,,,HNS002,1,2022_Nov_16_1627,Rating-signs,2021.2.3,None
Sign_Stimuli/Stim3SCF.mp4,Sign_Stimuli/Stim3F.mp4,0,49,49,49,,,,,['1'],[5.113121272996068],['1'],[1.6976186579995556],None,,,,,HNS002,1,2022_Nov_16_1627,Rating-signs,2021.2.3,None
Sign_Stimuli/Stim1VCF.mp4,Sign_Stimuli/Stim3VCF.mp4,0,50,50,50,,,,,['2'],[2.601913405000232],['1'],[1.100293048992171],None,,,,,HNS002,1,2022_Nov_16_1627,Rating-signs,2021.2.3,None
Sign_Stimuli/Stim3VCM.mp4,Sign_Stimuli/Stim1VCF.mp4,0,51,51,51,,,,,['2'],[0.8520895739929983],['1'],[0.40348925899888854],None,,,,,HNS002,1,2022_Nov_16_1627,Rating-signs,2021.2.3,None
Sign_Stimuli/Stim1SCM.mp4,Sign_Stimuli/Stim2VCM.mp4,0,52,52,52,,,,,['1'],[6.6562274919997435],['1'],[0.3810462830006145],None,,,,,HNS002,1,2022_Nov_16_1627,Rating-signs,2021.2.3,None
Sign_Stimuli/Stim2VCF.mp4,Sign_Stimuli/Stim2SCM.mp4,0,53,53,53,,,,,['1'],[2.8496469640085706],['1'],[0.2637671130069066],None,,,,,HNS002,1,2022_Nov_16_1627,Rating-signs,2021.2.3,None
Sign_Stimuli/Stim2VCF.mp4,Sign_Stimuli/Stim1M.mp4,0,54,54,54,,,,,['1'],[12.230488082001102],['1'],[0.3139848320133751],None,,,,,HNS002,1,2022_Nov_16_1627,Rating-signs,2021.2.3,None
Sign_Stimuli/Stim3F.mp4,Sign_Stimuli/Stim2VCM.mp4,0,55,55,55,,,,,['1'],[9.978686189992004],['1'],[0.2780202680005459],None,,,,,HNS002,1,2022_Nov_16_1627,Rating-signs,2021.2.3,None
Sign_Stimuli/Stim2F.mp4,Sign_Stimuli/Stim2M.mp4,0,56,56,56,,,,,['7'],[17.665508318998036],['7'],[0.24119292899558786],None,,,,,HNS002,1,2022_Nov_16_1627,Rating-signs,2021.2.3,None
Sign_Stimuli/Stim2VCF.mp4,Sign_Stimuli/Stim1F.mp4,0,57,57,57,,,,,['1'],[9.394463099000859],['1'],[0.3603014560067095],None,,,,,HNS002,1,2022_Nov_16_1627,Rating-signs,2021.2.3,None
Sign_Stimuli/Stim1SCM.mp4,Sign_Stimuli/Stim2SCF.mp4,0,58,58,58,,,,,['1'],[26.429496084994753],['1'],[0.29622085399751086],None,,,,,HNS002,1,2022_Nov_16_1627,Rating-signs,2021.2.3,None
Sign_Stimuli/Stim1M.mp4,Sign_Stimuli/Stim2M.mp4,0,59,59,59,,,,,['1'],[1.6703985979984282],['1'],[0.29339752199302893],None,,,,,HNS002,1,2022_Nov_16_1627,Rating-signs,2021.2.3,None
Sign_Stimuli/Stim1VCM.mp4,Sign_Stimuli/Stim3M.mp4,0,60,60,60,,,,,['1'],[1.3987863460060908],['1'],[0.3549043879902456],None,,,,,HNS002,1,2022_Nov_16_1627,Rating-signs,2021.2.3,None
Sign_Stimuli/Stim1F.mp4,Sign_Stimuli/Stim3VCF.mp4,0,61,61,61,,,,,['2'],[4.587929268993321],['1'],[0.4626685660041403],None,,,,,HNS002,1,2022_Nov_16_1627,Rating-signs,2021.2.3,None
Sign_Stimuli/Stim2F.mp4,Sign_Stimuli/Stim1M.mp4,0,62,62,62,,,,,['1'],[4.65372542499972],['1'],[0.25705695000942796],None,,,,,HNS002,1,2022_Nov_16_1627,Rating-signs,2021.2.3,None
Sign_Stimuli/Stim3F.mp4,Sign_Stimuli/Stim2SCM.mp4,0,63,63,63,,,,,['2'],[9.400328948991955],['1'],[0.4909699909912888],None,,,,,HNS002,1,2022_Nov_16_1627,Rating-signs,2021.2.3,None
Sign_Stimuli/Stim2SCM.mp4,Sign_Stimuli/Stim1F.mp4,0,64,64,64,,,,,['3'],[4.029390104988124],['2'],[1.4742517359991325],None,,,,,HNS002,1,2022_Nov_16_1627,Rating-signs,2021.2.3,None
Sign_Stimuli/Stim3F.mp4,Sign_Stimuli/Stim2VCF.mp4,0,65,65,65,,,,,['2'],[1.5647279630065896],['1'],[0.3780113579996396],None,,,,,HNS002,1,2022_Nov_16_1627,Rating-signs,2021.2.3,None
Sign_Stimuli/Stim3VCF.mp4,Sign_Stimuli/Stim2M.mp4,0,66,66,66,,,,,['2'],[0.4880751470045652],['1'],[0.32484152499819174],None,,,,,HNS002,1,2022_Nov_16_1627,Rating-signs,2021.2.3,None
Sign_Stimuli/Stim3SCM.mp4,Sign_Stimuli/Stim2M.mp4,0,67,67,67,,,,,['2'],[3.668979174006381],['1'],[0.36755530298978556],None,,,,,HNS002,1,2022_Nov_16_1627,Rating-signs,2021.2.3,None
Sign_Stimuli/Stim1SCM.mp4,Sign_Stimuli/Stim2SCM.mp4,0,68,68,68,,,,,['2'],[6.449281105000409],['1'],[1.7354028080007993],None,,,,,HNS002,1,2022_Nov_16_1627,Rating-signs,2021.2.3,None
Sign_Stimuli/Stim2F.mp4,Sign_Stimuli/Stim2SCM.mp4,0,69,69,69,,,,,['1'],[5.525153905997286],['1'],[0.20983201700437348],None,,,,,HNS002,1,2022_Nov_16_1627,Rating-signs,2021.2.3,None
Sign_Stimuli/Stim2SCM.mp4,Sign_Stimuli/Stim1M.mp4,0,70,70,70,,,,,['4'],[13.030255142992246],['2'],[9.000570949006942],None,,,,,HNS002,1,2022_Nov_16_1627,Rating-signs,2021.2.3,None
Sign_Stimuli/Stim1F.mp4,Sign_Stimuli/Stim2F.mp4,0,71,71,71,,,,,['1'],[3.2423682490043575],['1'],[0.2672342000005301],None,,,,,HNS002,1,2022_Nov_16_1627,Rating-signs,2021.2.3,None
Sign_Stimuli/Stim3SCM.mp4,Sign_Stimuli/Stim3SCF.mp4,0,72,72,72,,,,,['7'],[1.1798533099936321],['7'],[0.19136512999830302],None,,,,,HNS002,1,2022_Nov_16_1627,Rating-signs,2021.2.3,None
Sign_Stimuli/Stim3VCF.mp4,Sign_Stimuli/Stim2SCF.mp4,0,73,73,73,,,,,['1'],[4.812413421997917],['1'],[0.1876699800050119],None,,,,,HNS002,1,2022_Nov_16_1627,Rating-signs,2021.2.3,None
Sign_Stimuli/Stim1SCF.mp4,Sign_Stimuli/Stim2VCM.mp4,0,74,74,74,,,,,['1'],[7.207484578000731],['1'],[0.20514271900174208],None,,,,,HNS002,1,2022_Nov_16_1627,Rating-signs,2021.2.3,None
Sign_Stimuli/Stim3VCF.mp4,Sign_Stimuli/Stim1SCM.mp4,0,75,75,75,,,,,['1'],[1.880098421999719],['1'],[0.2598152959981235],None,,,,,HNS002,1,2022_Nov_16_1627,Rating-signs,2021.2.3,None
Sign_Stimuli/Stim1F.mp4,Sign_Stimuli/Stim1VCF.mp4,0,76,76,76,,,,,['5'],[3.5599198910058476],['4'],[5.261578466001083],None,,,,,HNS002,1,2022_Nov_16_1627,Rating-signs,2021.2.3,None
Sign_Stimuli/Stim1M.mp4,Sign_Stimuli/Stim3VCM.mp4,0,77,77,77,,,,,['3'],[1.5264018870075233],['2'],[1.8412241420010105],None,,,,,HNS002,1,2022_Nov_16_1627,Rating-signs,2021.2.3,None
Sign_Stimuli/Stim3SCF.mp4,Sign_Stimuli/Stim1VCF.mp4,0,78,78,78,,,,,['1'],[0.43790957900637295],['1'],[0.18269644099927973],None,,,,,HNS002,1,2022_Nov_16_1627,Rating-signs,2021.2.3,None
Sign_Stimuli/Stim3VCF.mp4,Sign_Stimuli/Stim1SCF.mp4,0,79,79,79,,,,,['1'],[5.967434276986751],['1'],[0.21778162798727863],None,,,,,HNS002,1,2022_Nov_16_1627,Rating-signs,2021.2.3,None
Sign_Stimuli/Stim1SCM.mp4,Sign_Stimuli/Stim1F.mp4,0,80,80,80,,,,,['1'],[0.38620928999444004],['1'],[2.5872224719933],None,,,,,HNS002,1,2022_Nov_16_1627,Rating-signs,2021.2.3,None
Sign_Stimuli/Stim2VCM.mp4,Sign_Stimuli/Stim1M.mp4,0,81,81,81,,,,,['1'],[0.11604390099819284],['1'],[0.6159676919924095],None,,,,,HNS002,1,2022_Nov_16_1627,Rating-signs,2021.2.3,None
Sign_Stimuli/Stim1M.mp4,Sign_Stimuli/Stim1SCM.mp4,0,82,82,82,,,,,['2'],[0.4173914629936917],['1'],[0.38357548900239635],None,,,,,HNS002,1,2022_Nov_16_1627,Rating-signs,2021.2.3,None
Sign_Stimuli/Stim1M.mp4,Sign_Stimuli/Stim3M.mp4,0,83,83,83,,,,,['1'],[0.24654067899973597],['1'],[0.3215643829898909],None,,,,,HNS002,1,2022_Nov_16_1627,Rating-signs,2021.2.3,None
Sign_Stimuli/Stim3F.mp4,Sign_Stimuli/Stim1VCM.mp4,0,84,84,84,,,,,['1'],[0.27229324699146673],['1'],[0.4596359919960378],None,,,,,HNS002,1,2022_Nov_16_1627,Rating-signs,2021.2.3,None
Sign_Stimuli/Stim2SCF.mp4,Sign_Stimuli/Stim1VCM.mp4,0,85,85,85,,,,,['3'],[2.725106728001265],['2'],[2.944615907006664],None,,,,,HNS002,1,2022_Nov_16_1627,Rating-signs,2021.2.3,None
Sign_Stimuli/Stim3SCM.mp4,Sign_Stimuli/Stim2VCF.mp4,0,86,86,86,,,,,['2'],[2.672309857996879],['1'],[0.45317000699287746],None,,,,,HNS002,1,2022_Nov_16_1627,Rating-signs,2021.2.3,None
Sign_Stimuli/Stim1SCM.mp4,Sign_Stimuli/Stim3SCM.mp4,0,87,87,87,,,,,['2'],[0.28701457199349534],['1'],[0.24220377000165172],None,,,,,HNS002,1,2022_Nov_16_1627,Rating-signs,2021.2.3,None
Sign_Stimuli/Stim2SCM.mp4,Sign_Stimuli/Stim1SCF.mp4,0,88,88,88,,,,,['1'],[0.9023940000042785],['1'],[0.31753061299968977],None,,,,,HNS002,1,2022_Nov_16_1627,Rating-signs,2021.2.3,None
Sign_Stimuli/Stim2VCF.mp4,Sign_Stimuli/Stim2M.mp4,0,89,89,89,,,,,['6'],[38.29611128199031],['6'],[8.52775882599235],None,,,,,HNS002,1,2022_Nov_16_1627,Rating-signs,2021.2.3,None
Sign_Stimuli/Stim3F.mp4,Sign_Stimuli/Stim2SCF.mp4,0,90,90,90,,,,,['1'],[0.31516834399371874],['1'],[0.2351003310031956],None,,,,,HNS002,1,2022_Nov_16_1627,Rating-signs,2021.2.3,None
Sign_Stimuli/Stim3SCM.mp4,Sign_Stimuli/Stim2F.mp4,0,91,91,91,,,,,['2'],[13.859467068992672],['1'],[0.27058294700691476],None,,,,,HNS002,1,2022_Nov_16_1627,Rating-signs,2021.2.3,None
Sign_Stimuli/Stim1VCF.mp4,Sign_Stimuli/Stim2SCM.mp4,0,92,92,92,,,,,['3'],[7.029294811],['2'],[0.4137937709892867],None,,,,,HNS002,1,2022_Nov_16_1627,Rating-signs,2021.2.3,None
Sign_Stimuli/Stim3SCF.mp4,Sign_Stimuli/Stim2F.mp4,0,93,93,93,,,,,['2'],[12.298064930000692],['2'],[0.5927519279939588],None,,,,,HNS002,1,2022_Nov_16_1627,Rating-signs,2021.2.3,None
Sign_Stimuli/Stim3F.mp4,Sign_Stimuli/Stim3M.mp4,0,94,94,94,,,,,['7'],[2.3429593949986156],['7'],[0.22440996000659652],None,,,,,HNS002,1,2022_Nov_16_1627,Rating-signs,2021.2.3,None
Sign_Stimuli/Stim2M.mp4,Sign_Stimuli/Stim1F.mp4,0,95,95,95,,,,,['1'],[1.2596518020000076],['1'],[0.3871520540124038],None,,,,,HNS002,1,2022_Nov_16_1627,Rating-signs,2021.2.3,None
Sign_Stimuli/Stim3SCF.mp4,Sign_Stimuli/Stim2VCF.mp4,0,96,96,96,,,,,['2'],[0.9624900279886788],['2'],[0.20002384499821346],None,,,,,HNS002,1,2022_Nov_16_1627,Rating-signs,2021.2.3,None
Sign_Stimuli/Stim3SCF.mp4,Sign_Stimuli/Stim2VCM.mp4,0,97,97,97,,,,,['2'],[4.17554464598652],['2'],[0.595064855995588],None,,,,,HNS002,1,2022_Nov_16_1627,Rating-signs,2021.2.3,None
Sign_Stimuli/Stim1SCF.mp4,Sign_Stimuli/Stim2F.mp4,0,98,98,98,,,,,['1'],[0.8306673400074942],['1'],[0.35709820000920445],None,,,,,HNS002,1,2022_Nov_16_1627,Rating-signs,2021.2.3,None
Sign_Stimuli/Stim3VCM.mp4,Sign_Stimuli/Stim3SCM.mp4,0,99,99,99,,,,,['1'],[0.30617170500045177],['1'],[0.35692150999966543],None,,,,,HNS002,1,2022_Nov_16_1627,Rating-signs,2021.2.3,None
Sign_Stimuli/Stim3SCF.mp4,Sign_Stimuli/Stim1M.mp4,0,100,100,100,,,,,['1'],[0.28778244300337974],['1'],[0.3579393879917916],None,,,,,HNS002,1,2022_Nov_16_1627,Rating-signs,2021.2.3,None
Sign_Stimuli/Stim3SCF.mp4,Sign_Stimuli/Stim2SCM.mp4,0,101,101,101,,,,,['1'],[0.18652154100709595],['1'],[0.4220641779975267],None,,,,,HNS002,1,2022_Nov_16_1627,Rating-signs,2021.2.3,None
Sign_Stimuli/Stim1SCF.mp4,Sign_Stimuli/Stim3M.mp4,0,102,102,102,,,,,['1'],[0.6343498909991467],['1'],[3.182041718013352],None,,,,,HNS002,1,2022_Nov_16_1627,Rating-signs,2021.2.3,None
Sign_Stimuli/Stim1VCM.mp4,Sign_Stimuli/Stim2VCM.mp4,0,103,103,103,,,,,['1'],[0.1615927439997904],['1'],[0.37219308299245313],None,,,,,HNS002,1,2022_Nov_16_1627,Rating-signs,2021.2.3,None
Sign_Stimuli/Stim2VCM.mp4,Sign_Stimuli/Stim2SCM.mp4,0,104,104,104,,,,,['1'],[3.1761889629997313],['1'],[0.30395136200240813],None,,,,,HNS002,1,2022_Nov_16_1627,Rating-signs,2021.2.3,None
Sign_Stimuli/Stim2SCF.mp4,Sign_Stimuli/Stim2F.mp4,0,105,105,105,,,,,['1'],[8.882417233995511],['1'],[0.4470288820011774],None,,,,,HNS002,1,2022_Nov_16_1627,Rating-signs,2021.2.3,None
Sign_Stimuli/Stim3M.mp4,Sign_Stimuli/Stim2M.mp4,0,106,106,106,,,,,['1'],[3.7500711000029696],['1'],[0.3642206609947607],None,,,,,HNS002,1,2022_Nov_16_1627,Rating-signs,2021.2.3,None
Sign_Stimuli/Stim2VCF.mp4,Sign_Stimuli/Stim1SCF.mp4,0,107,107,107,,,,,['1'],[0.21933701599482447],['1'],[0.46321227800217457],None,,,,,HNS002,1,2022_Nov_16_1627,Rating-signs,2021.2.3,None
Sign_Stimuli/Stim2VCF.mp4,Sign_Stimuli/Stim1VCF.mp4,0,108,108,108,,,,,['1'],[3.421066412003711],['1'],[2.0094991579971975],None,,,,,HNS002,1,2022_Nov_16_1627,Rating-signs,2021.2.3,None
Sign_Stimuli/Stim2SCM.mp4,Sign_Stimuli/Stim3M.mp4,0,109,109,109,,,,,['1'],[4.075018174000434],['1'],[1.407756614004029],None,,,,,HNS002,1,2022_Nov_16_1627,Rating-signs,2021.2.3,None
Sign_Stimuli/Stim3SCM.mp4,Sign_Stimuli/Stim2VCM.mp4,0,110,110,110,,,,,['3'],[9.372702863998711],['2'],[0.7723069869971368],None,,,,,HNS002,1,2022_Nov_16_1627,Rating-signs,2021.2.3,None
Sign_Stimuli/Stim2SCF.mp4,Sign_Stimuli/Stim1VCF.mp4,0,111,111,111,,,,,['3'],[5.345591773002525],['3'],[0.4022510219947435],None,,,,,HNS002,1,2022_Nov_16_1627,Rating-signs,2021.2.3,None
Sign_Stimuli/Stim3VCM.mp4,Sign_Stimuli/Stim2VCF.mp4,0,112,112,112,,,,,['2'],[1.60526075999951],['1'],[2.4277399290003814],None,,,,,HNS002,1,2022_Nov_16_1627,Rating-signs,2021.2.3,None
Sign_Stimuli/Stim1VCM.mp4,Sign_Stimuli/Stim1M.mp4,0,113,113,113,,,,,['5'],[4.3107813490059925],['5'],[2.928262123998138],None,,,,,HNS002,1,2022_Nov_16_1627,Rating-signs,2021.2.3,None
Sign_Stimuli/Stim2F.mp4,Sign_Stimuli/Stim3F.mp4,0,114,114,114,,,,,['1'],[8.360481777999667],['1'],[0.5298474050068762],None,,,,,HNS002,1,2022_Nov_16_1627,Rating-signs,2021.2.3,None
Sign_Stimuli/Stim3M.mp4,Sign_Stimuli/Stim3SCF.mp4,0,115,115,115,,,,,['1'],[0.14422647999890614],['1'],[0.37294493200897705],None,,,,,HNS002,1,2022_Nov_16_1627,Rating-signs,2021.2.3,None
Sign_Stimuli/Stim3VCF.mp4,Sign_Stimuli/Stim2F.mp4,0,116,116,116,,,,,['1'],[0.31433295100578107],['1'],[1.011405122000724],None,,,,,HNS002,1,2022_Nov_16_1627,Rating-signs,2021.2.3,None
Sign_Stimuli/Stim1VCM.mp4,Sign_Stimuli/Stim3SCM.mp4,0,117,117,117,,,,,['1'],[5.168329028005246],['1'],[0.5552078869950492],None,,,,,HNS002,1,2022_Nov_16_1627,Rating-signs,2021.2.3,None
Sign_Stimuli/Stim3M.mp4,Sign_Stimuli/Stim3SCM.mp4,0,118,118,118,,,,,['1'],[0.28243800200289115],['1'],[0.39122548200248275],None,,,,,HNS002,1,2022_Nov_16_1627,Rating-signs,2021.2.3,None
Sign_Stimuli/Stim1VCM.mp4,Sign_Stimuli/Stim1SCF.mp4,0,119,119,119,,,,,['3'],[2.0612378969963174],['2'],[3.297324181010481],None,,,,,HNS002,1,2022_Nov_16_1627,Rating-signs,2021.2.3,None
Sign_Stimuli/Stim2F.mp4,Sign_Stimuli/Stim3VCM.mp4,0,120,120,120,,,,,['1'],[1.4007788659946527],['1'],[0.5225498590007192],None,,,,,HNS002,1,2022_Nov_16_1627,Rating-signs,2021.2.3,None
Sign_Stimuli/Stim1F.mp4,Sign_Stimuli/Stim3VCM.mp4,0,121,121,121,,,,,['2'],[2.077680341011728],['2'],[3.437833654010319],None,,,,,HNS002,1,2022_Nov_16_1627,Rating-signs,2021.2.3,None
Sign_Stimuli/Stim2VCF.mp4,Sign_Stimuli/Stim2VCM.mp4,0,122,122,122,,,,,['7'],[13.450242111008265],['7'],[0.46995137599878944],None,,,,,HNS002,1,2022_Nov_16_1627,Rating-signs,2021.2.3,None
Sign_Stimuli/Stim3SCM.mp4,Sign_Stimuli/Stim3VCF.mp4,0,123,123,123,,,,,['1'],[3.831326956002158],['1'],[0.3511844150052639],None,,,,,HNS002,1,2022_Nov_16_1627,Rating-signs,2021.2.3,None
Sign_Stimuli/Stim3VCF.mp4,Sign_Stimuli/Stim1VCM.mp4,0,124,124,124,,,,,['2'],[0.36299895199772436],['1'],[0.755350780003937],None,,,,,HNS002,1,2022_Nov_16_1627,Rating-signs,2021.2.3,None
Sign_Stimuli/Stim2VCF.mp4,Sign_Stimuli/Stim1SCM.mp4,0,125,125,125,,,,,['1'],[1.604548777002492],['1'],[0.6298820899974089],None,,,,,HNS002,1,2022_Nov_16_1627,Rating-signs,2021.2.3,None
Sign_Stimuli/Stim2VCM.mp4,Sign_Stimuli/Stim2F.mp4,0,126,126,126,,,,,['7'],[2.735941634993651],['7'],[0.44410187799076084],None,,,,,HNS002,1,2022_Nov_16_1627,Rating-signs,2021.2.3,None
Sign_Stimuli/Stim2F.mp4,Sign_Stimuli/Stim3M.mp4,0,127,127,127,,,,,['1'],[0.14250300198909827],['1'],[0.5304071179998573],None,,,,,HNS002,1,2022_Nov_16_1627,Rating-signs,2021.2.3,None
Sign_Stimuli/Stim1VCF.mp4,Sign_Stimuli/Stim1SCF.mp4,0,128,128,128,,,,,['2'],[1.8713393109937897],['1'],[0.4913852249883348],None,,,,,HNS002,1,2022_Nov_16_1627,Rating-signs,2021.2.3,None
Sign_Stimuli/Stim1SCM.mp4,Sign_Stimuli/Stim1VCM.mp4,0,129,129,129,,,,,['2'],[0.29277369599731173],['1'],[0.5013120679941494],None,,,,,HNS002,1,2022_Nov_16_1627,Rating-signs,2021.2.3,None
Sign_Stimuli/Stim2F.mp4,Sign_Stimuli/Stim1SCM.mp4,0,130,130,130,,,,,['1'],[1.160024966011406],['1'],[0.44096799100225326],None,,,,,HNS002,1,2022_Nov_16_1627,Rating-signs,2021.2.3,None
Sign_Stimuli/Stim3F.mp4,Sign_Stimuli/Stim1SCF.mp4,0,131,131,131,,,,,['1'],[0.21145507700566668],['1'],[0.49923932099773083],None,,,,,HNS002,1,2022_Nov_16_1627,Rating-signs,2021.2.3,None
Sign_Stimuli/Stim1SCF.mp4,Sign_Stimuli/Stim3VCM.mp4,0,132,132,132,,,,,['2'],[5.357384011003887],['1'],[0.5276330599881476],None,,,,,HNS002,1,2022_Nov_16_1627,Rating-signs,2021.2.3,None
Sign_Stimuli/Stim2M.mp4,Sign_Stimuli/Stim2SCM.mp4,0,133,133,133,,,,,['1'],[0.6804994119884213],['1'],[0.6940602620015852],None,,,,,HNS002,1,2022_Nov_16_1627,Rating-signs,2021.2.3,None
Sign_Stimuli/Stim1SCM.mp4,Sign_Stimuli/Stim1SCF.mp4,0,134,134,134,,,,,['7'],[1.9565932550030993],['7'],[0.37656828899343964],None,,,,,HNS002,1,2022_Nov_16_1627,Rating-signs,2021.2.3,None
Sign_Stimuli/Stim2VCF.mp4,Sign_Stimuli/Stim1VCM.mp4,0,135,135,135,,,,,['2'],[2.188474555994617],['1'],[0.6135692880052375],None,,,,,HNS002,1,2022_Nov_16_1627,Rating-signs,2021.2.3,None
Sign_Stimuli/Stim1F.mp4,Sign_Stimuli/Stim2VCM.mp4,0,136,136,136,,,,,['2'],[2.0442226479935925],['1'],[0.40710866200970486],None,,,,,HNS002,1,2022_Nov_16_1627,Rating-signs,2021.2.3,None
Sign_Stimuli/Stim2SCM.mp4,Sign_Stimuli/Stim1VCM.mp4,0,137,137,137,,,,,['2'],[2.810466541995993],['2'],[0.12182360600854736],None,,,,,HNS002,1,2022_Nov_16_1627,Rating-signs,2021.2.3,None
Sign_Stimuli/Stim1F.mp4,Sign_Stimuli/Stim1M.mp4,0,138,138,138,,,,,['7'],[2.75125102000311],['7'],[0.3546292020037072],None,,,,,HNS002,1,2022_Nov_16_1627,Rating-signs,2021.2.3,None
Sign_Stimuli/Stim1VCF.mp4,Sign_Stimuli/Stim1VCM.mp4,0,139,139,139,,,,,['7'],[1.9367971410101745],['7'],[0.3470585629984271],None,,,,,HNS002,1,2022_Nov_16_1627,Rating-signs,2021.2.3,None
Sign_Stimuli/Stim1F.mp4,Sign_Stimuli/Stim3M.mp4,0,140,140,140,,,,,['1'],[0.22375381700112484],['1'],[0.4830239459988661],None,,,,,HNS002,1,2022_Nov_16_1627,Rating-signs,2021.2.3,None
Sign_Stimuli/Stim1SCF.mp4,Sign_Stimuli/Stim1M.mp4,0,141,141,141,,,,,['2'],[0.40286073900642805],['1'],[0.3452601600001799],None,,,,,HNS002,1,2022_Nov_16_1627,Rating-signs,2021.2.3,None
Sign_Stimuli/Stim2VCM.mp4,Sign_Stimuli/Stim2SCF.mp4,0,142,142,142,,,,,['1'],[0.14649929400184192],['1'],[0.37946520900004543],None,,,,,HNS002,1,2022_Nov_16_1627,Rating-signs,2021.2.3,None
Sign_Stimuli/Stim2SCF.mp4,Sign_Stimuli/Stim3SCM.mp4,0,143,143,143,,,,,['1'],[0.19437056500464678],['1'],[0.48818156600464135],None,,,,,HNS002,1,2022_Nov_16_1627,Rating-signs,2021.2.3,None
Sign_Stimuli/Stim1VCF.mp4,Sign_Stimuli/Stim3F.mp4,0,144,144,144,,,,,['1'],[0.1130559620069107],['1'],[0.37588539099670015],None,,,,,HNS002,1,2022_Nov_16_1627,Rating-signs,2021.2.3,None
Sign_Stimuli/Stim2M.mp4,Sign_Stimuli/Stim1VCF.mp4,0,145,145,145,,,,,['1'],[1.8682693440059666],['1'],[1.3672621330042602],None,,,,,HNS002,1,2022_Nov_16_1627,Rating-signs,2021.2.3,None
Sign_Stimuli/Stim2M.mp4,Sign_Stimuli/Stim3VCM.mp4,0,146,146,146,,,,,['2'],[0.02416243999323342],['1'],[0.4692605519958306],None,,,,,HNS002,1,2022_Nov_16_1627,Rating-signs,2021.2.3,None
Sign_Stimuli/Stim2SCM.mp4,Sign_Stimuli/Stim2SCF.mp4,0,147,147,147,,,,,['7'],[0.1911956529947929],['7'],[0.4062233830045443],None,,,,,HNS002,1,2022_Nov_16_1627,Rating-signs,2021.2.3,None
Sign_Stimuli/Stim2VCM.mp4,Sign_Stimuli/Stim3VCF.mp4,0,148,148,148,,,,,['2'],[0.4529793719993904],['1'],[0.4007057020062348],None,,,,,HNS002,1,2022_Nov_16_1627,Rating-signs,2021.2.3,None
Sign_Stimuli/Stim2M.mp4,Sign_Stimuli/Stim3SCF.mp4,0,149,149,149,,,,,['1'],[0.32729330100119114],['2'],[1.7597017100051744],None,,,,,HNS002,1,2022_Nov_16_1627,Rating-signs,2021.2.3,None
Sign_Stimuli/Stim1SCF.mp4,Sign_Stimuli/Stim2SCF.mp4,0,150,150,150,,,,,['1'],[1.0512572029983858],['1'],[0.3585403439938091],None,,,,,HNS002,1,2022_Nov_16_1627,Rating-signs,2021.2.3,None
Sign_Stimuli/Stim1VCM.mp4,Sign_Stimuli/Stim2M.mp4,0,151,151,151,,,,,['2'],[2.1517900000035297],['1'],[0.5468776570050977],None,,,,,HNS002,1,2022_Nov_16_1627,Rating-signs,2021.2.3,None
Sign_Stimuli/Stim3F.mp4,Sign_Stimuli/Stim1M.mp4,0,152,152,152,,,,,['1'],[0.23449321700900327],['1'],[0.3961271449952619],None,,,,,HNS002,1,2022_Nov_16_1627,Rating-signs,2021.2.3,None
,,,,,,,,,,,,,,,space,54.03628623,0.015557483,None,HNS002,1,2022_Nov_16_1627,Rating-signs,2021.2.3,None