Vid1;Vid2;trials.thisRepN;trials.thisTrialN;trials.thisN;trials.thisIndex;START_key.started;START_key.keys;START_key.rt;visual_key.keys;visual_key.rt;sem_key.keys;sem_key.rt;pass_loop.keys;end_resp.started;end_resp.keys;end_resp.rt;participant;session;date;expName;psychopyVersion;frameRate
;;;;;;4.290000651963055e-05;space;1.8223203000088688;;;;;;;;;hns001;1;2022-11-15_13h43.10.328;Rating-signs;2022.2.4;60.05814829797971
Sign_Stimuli/Stim3VCM.mp4;Sign_Stimuli/Stim1VCM.mp4;0;0;0;0;;;;['1'];[10.221661399991717];['3'];[8.762547799997265];None;;;;hns001;1;2022-11-15_13h43.10.328;Rating-signs;2022.2.4;60.05814829797971
Sign_Stimuli/Stim1SCF.mp4;Sign_Stimuli/Stim2M.mp4;0;1;1;1;;;;['1'];[1.3613419000175782];['2'];[8.893878400005633];None;;;;hns001;1;2022-11-15_13h43.10.328;Rating-signs;2022.2.4;60.05814829797971
Sign_Stimuli/Stim1F.mp4;Sign_Stimuli/Stim3SCF.mp4;0;2;2;2;;;;['1'];[2.0220536999986507];['1'];[4.941471500002081];None;;;;hns001;1;2022-11-15_13h43.10.328;Rating-signs;2022.2.4;60.05814829797971
Sign_Stimuli/Stim3M.mp4;Sign_Stimuli/Stim2VCF.mp4;0;3;3;3;;;;['1'];[1.6116046000097413];['1'];[5.879050800023833];None;;;;hns001;1;2022-11-15_13h43.10.328;Rating-signs;2022.2.4;60.05814829797971
Sign_Stimuli/Stim1SCM.mp4;Sign_Stimuli/Stim3F.mp4;0;4;4;4;;;;['1'];[1.7250260000000708];['2'];[4.095251599996118];None;;;;hns001;1;2022-11-15_13h43.10.328;Rating-signs;2022.2.4;60.05814829797971
Sign_Stimuli/Stim3VCF.mp4;Sign_Stimuli/Stim3VCM.mp4;0;5;5;5;;;;['6'];[5.258331500022905];['3'];[2.95793470001081];None;;;;hns001;1;2022-11-15_13h43.10.328;Rating-signs;2022.2.4;60.05814829797971
Sign_Stimuli/Stim2M.mp4;Sign_Stimuli/Stim2SCF.mp4;0;6;6;6;;;;['1'];[0.41238950000843033];['3'];[9.789918800001033];None;;;;hns001;1;2022-11-15_13h43.10.328;Rating-signs;2022.2.4;60.05814829797971
Sign_Stimuli/Stim2VCM.mp4;Sign_Stimuli/Stim3VCM.mp4;0;7;7;7;;;;['1'];[1.5747735000040848];['2'];[4.2591937000106554];None;;;;hns001;1;2022-11-15_13h43.10.328;Rating-signs;2022.2.4;60.05814829797971
Sign_Stimuli/Stim3VCF.mp4;Sign_Stimuli/Stim2VCF.mp4;0;8;8;8;;;;['1'];[2.2551185000047553];['2'];[7.6427137999853585];None;;;;hns001;1;2022-11-15_13h43.10.328;Rating-signs;2022.2.4;60.05814829797971
Sign_Stimuli/Stim3VCF.mp4;Sign_Stimuli/Stim3F.mp4;0;9;9;9;;;;['5'];[3.595304999995278];['4'];[4.42475989999366];None;;;;hns001;1;2022-11-15_13h43.10.328;Rating-signs;2022.2.4;60.05814829797971
Sign_Stimuli/Stim2F.mp4;Sign_Stimuli/Stim2VCF.mp4;0;10;10;10;;;;['7'];[8.65751220000675];['7'];[2.1061791999964043];None;;;;hns001;1;2022-11-15_13h43.10.328;Rating-signs;2022.2.4;60.05814829797971
Sign_Stimuli/Stim1SCF.mp4;Sign_Stimuli/Stim3SCF.mp4;0;11;11;11;;;;['3'];[1.435787700000219];['2'];[7.25577789999079];None;;;;hns001;1;2022-11-15_13h43.10.328;Rating-signs;2022.2.4;60.05814829797971
Sign_Stimuli/Stim3SCM.mp4;Sign_Stimuli/Stim1M.mp4;0;12;12;12;;;;['1'];[3.4927234000060707];['2'];[2.114483500015922];None;;;;hns001;1;2022-11-15_13h43.10.328;Rating-signs;2022.2.4;60.05814829797971
Sign_Stimuli/Stim2SCM.mp4;Sign_Stimuli/Stim3VCF.mp4;0;13;13;13;;;;['1'];[7.6538930000097025];['2'];[1.9127435999980662];None;;;;hns001;1;2022-11-15_13h43.10.328;Rating-signs;2022.2.4;60.05814829797971
Sign_Stimuli/Stim1VCF.mp4;Sign_Stimuli/Stim1SCM.mp4;0;14;14;14;;;;['2'];[1.3529823999851942];['2'];[4.138324899977306];None;;;;hns001;1;2022-11-15_13h43.10.328;Rating-signs;2022.2.4;60.05814829797971
Sign_Stimuli/Stim2SCF.mp4;Sign_Stimuli/Stim3M.mp4;0;15;15;15;;;;['3'];[7.215272199973697];['3'];[4.400976000004448];None;;;;hns001;1;2022-11-15_13h43.10.328;Rating-signs;2022.2.4;60.05814829797971
Sign_Stimuli/Stim3M.mp4;Sign_Stimuli/Stim3VCM.mp4;0;16;16;16;;;;['5'];[2.0283123000117484];['3'];[4.866164100007154];None;;;;hns001;1;2022-11-15_13h43.10.328;Rating-signs;2022.2.4;60.05814829797971
Sign_Stimuli/Stim3SCM.mp4;Sign_Stimuli/Stim1SCF.mp4;0;17;17;17;;;;['2'];[8.615942799980985];['2'];[4.276942199998302];None;;;;hns001;1;2022-11-15_13h43.10.328;Rating-signs;2022.2.4;60.05814829797971
Sign_Stimuli/Stim3F.mp4;Sign_Stimuli/Stim3VCM.mp4;0;18;18;18;;;;['5'];[2.013601500017103];['3'];[2.2030514999933075];None;;;;hns001;1;2022-11-15_13h43.10.328;Rating-signs;2022.2.4;60.05814829797971
Sign_Stimuli/Stim1F.mp4;Sign_Stimuli/Stim1VCM.mp4;0;19;19;19;;;;['5'];[3.8244245999958366];['4'];[5.227670499996748];None;;;;hns001;1;2022-11-15_13h43.10.328;Rating-signs;2022.2.4;60.05814829797971
Sign_Stimuli/Stim1VCF.mp4;Sign_Stimuli/Stim1M.mp4;0;20;20;20;;;;['5'];[1.3495713000011165];['4'];[1.6433968999772333];None;;;;hns001;1;2022-11-15_13h43.10.328;Rating-signs;2022.2.4;60.05814829797971
Sign_Stimuli/Stim1VCF.mp4;Sign_Stimuli/Stim3SCM.mp4;0;21;21;21;;;;['1'];[1.1295748999982607];['1'];[2.9566325999912806];None;;;;hns001;1;2022-11-15_13h43.10.328;Rating-signs;2022.2.4;60.05814829797971
Sign_Stimuli/Stim1SCF.mp4;Sign_Stimuli/Stim1F.mp4;0;22;22;22;;;;['1'];[3.8994871999893803];['2'];[2.5954447999829426];None;;;;hns001;1;2022-11-15_13h43.10.328;Rating-signs;2022.2.4;60.05814829797971
Sign_Stimuli/Stim2SCF.mp4;Sign_Stimuli/Stim1M.mp4;0;23;23;23;;;;['1'];[0.7203800000133924];['1'];[4.647495100012748];None;;;;hns001;1;2022-11-15_13h43.10.328;Rating-signs;2022.2.4;60.05814829797971
Sign_Stimuli/Stim3F.mp4;Sign_Stimuli/Stim3SCM.mp4;0;24;24;24;;;;['1'];[2.9088564999983646];['1'];[3.134281299979193];None;;;;hns001;1;2022-11-15_13h43.10.328;Rating-signs;2022.2.4;60.05814829797971
Sign_Stimuli/Stim2VCM.mp4;Sign_Stimuli/Stim3M.mp4;0;25;25;25;;;;['1'];[0.39740650000749156];['2'];[5.364313099998981];None;;;;hns001;1;2022-11-15_13h43.10.328;Rating-signs;2022.2.4;60.05814829797971
Sign_Stimuli/Stim2SCF.mp4;Sign_Stimuli/Stim3SCF.mp4;0;26;26;26;;;;['1'];[0.4089672999980394];['2'];[6.603490200010128];None;;;;hns001;1;2022-11-15_13h43.10.328;Rating-signs;2022.2.4;60.05814829797971
Sign_Stimuli/Stim1VCF.mp4;Sign_Stimuli/Stim2VCM.mp4;0;27;27;27;;;;['1'];[1.7631162999896333];['1'];[3.334843799995724];None;;;;hns001;1;2022-11-15_13h43.10.328;Rating-signs;2022.2.4;60.05814829797971
Sign_Stimuli/Stim2M.mp4;Sign_Stimuli/Stim3F.mp4;0;28;28;28;;;;['1'];[1.238657100009732];['2'];[5.186572100006742];None;;;;hns001;1;2022-11-15_13h43.10.328;Rating-signs;2022.2.4;60.05814829797971
Sign_Stimuli/Stim3VCM.mp4;Sign_Stimuli/Stim1SCM.mp4;0;29;29;29;;;;['1'];[0.8322468999831472];['3'];[4.795949200022733];None;;;;hns001;1;2022-11-15_13h43.10.328;Rating-signs;2022.2.4;60.05814829797971
Sign_Stimuli/Stim3VCF.mp4;Sign_Stimuli/Stim3M.mp4;0;30;30;30;;;;['5'];[5.868178400007309];['3'];[3.330431500013219];None;;;;hns001;1;2022-11-15_13h43.10.328;Rating-signs;2022.2.4;60.05814829797971
Sign_Stimuli/Stim1VCF.mp4;Sign_Stimuli/Stim2F.mp4;0;31;31;31;;;;['1'];[0.4584407999936957];['1'];[4.001288300001761];None;;;;hns001;1;2022-11-15_13h43.10.328;Rating-signs;2022.2.4;60.05814829797971
Sign_Stimuli/Stim3SCM.mp4;Sign_Stimuli/Stim2SCM.mp4;0;32;32;32;;;;['1'];[0.3861245999869425];['2'];[6.588537000003271];None;;;;hns001;1;2022-11-15_13h43.10.328;Rating-signs;2022.2.4;60.05814829797971
Sign_Stimuli/Stim3SCF.mp4;Sign_Stimuli/Stim3VCM.mp4;0;33;33;33;;;;['1'];[1.1104212000209372];['1'];[2.5478907999931835];None;;;;hns001;1;2022-11-15_13h43.10.328;Rating-signs;2022.2.4;60.05814829797971
Sign_Stimuli/Stim1M.mp4;Sign_Stimuli/Stim3VCF.mp4;0;34;34;34;;;;['1'];[1.199121899990132];['2'];[3.5643927000055555];None;;;;hns001;1;2022-11-15_13h43.10.328;Rating-signs;2022.2.4;60.05814829797971
Sign_Stimuli/Stim1F.mp4;Sign_Stimuli/Stim2SCF.mp4;0;35;35;35;;;;['1'];[2.8776915000053123];['1'];[2.1686464000085834];None;;;;hns001;1;2022-11-15_13h43.10.328;Rating-signs;2022.2.4;60.05814829797971
Sign_Stimuli/Stim3SCM.mp4;Sign_Stimuli/Stim1F.mp4;0;36;36;36;;;;['1'];[1.118912400008412];['1'];[2.7375410000095144];None;;;;hns001;1;2022-11-15_13h43.10.328;Rating-signs;2022.2.4;60.05814829797971
Sign_Stimuli/Stim3M.mp4;Sign_Stimuli/Stim1VCF.mp4;0;37;37;37;;;;['1'];[0.5963449999981094];['1'];[2.856894900003681];None;;;;hns001;1;2022-11-15_13h43.10.328;Rating-signs;2022.2.4;60.05814829797971
Sign_Stimuli/Stim3VCM.mp4;Sign_Stimuli/Stim2SCM.mp4;0;38;38;38;;;;['1'];[2.7401427000004333];['2'];[5.643715800018981];None;;;;hns001;1;2022-11-15_13h43.10.328;Rating-signs;2022.2.4;60.05814829797971
Sign_Stimuli/Stim3VCF.mp4;Sign_Stimuli/Stim3SCF.mp4;0;39;39;39;;;;['1'];[1.5464570999902207];['1'];[2.840992199984612];None;;;;hns001;1;2022-11-15_13h43.10.328;Rating-signs;2022.2.4;60.05814829797971
Sign_Stimuli/Stim1SCM.mp4;Sign_Stimuli/Stim3SCF.mp4;0;40;40;40;;;;['1'];[0.8572614000004251];['1'];[2.524024599988479];None;;;;hns001;1;2022-11-15_13h43.10.328;Rating-signs;2022.2.4;60.05814829797971
Sign_Stimuli/Stim1SCM.mp4;Sign_Stimuli/Stim3M.mp4;0;41;41;41;;;;['1'];[1.0939690000086557];['2'];[3.5784254999889527];None;;;;hns001;1;2022-11-15_13h43.10.328;Rating-signs;2022.2.4;60.05814829797971
Sign_Stimuli/Stim2F.mp4;Sign_Stimuli/Stim1VCM.mp4;0;42;42;42;;;;['1'];[2.808371100021759];['1'];[3.5078733999980614];None;;;;hns001;1;2022-11-15_13h43.10.328;Rating-signs;2022.2.4;60.05814829797971
Sign_Stimuli/Stim3F.mp4;Sign_Stimuli/Stim1F.mp4;0;43;43;43;;;;['1'];[1.068615399999544];['2'];[2.3468835999956354];None;;;;hns001;1;2022-11-15_13h43.10.328;Rating-signs;2022.2.4;60.05814829797971
Sign_Stimuli/Stim1VCM.mp4;Sign_Stimuli/Stim3SCF.mp4;0;44;44;44;;;;['1'];[1.6908771999878809];['2'];[2.835308600013377];None;;;;hns001;1;2022-11-15_13h43.10.328;Rating-signs;2022.2.4;60.05814829797971
Sign_Stimuli/Stim2M.mp4;Sign_Stimuli/Stim1SCM.mp4;0;45;45;45;;;;['1'];[0.5321340999798849];['1'];[3.378399300010642];None;;;;hns001;1;2022-11-15_13h43.10.328;Rating-signs;2022.2.4;60.05814829797971
Sign_Stimuli/Stim2VCF.mp4;Sign_Stimuli/Stim2SCF.mp4;0;46;46;46;;;;['1'];[1.7193333999894094];['1'];[2.2603307999961544];None;;;;hns001;1;2022-11-15_13h43.10.328;Rating-signs;2022.2.4;60.05814829797971
Sign_Stimuli/Stim2SCF.mp4;Sign_Stimuli/Stim3VCM.mp4;0;47;47;47;;;;['1'];[0.44277799999690615];['2'];[1.4406882000039332];None;;;;hns001;1;2022-11-15_13h43.10.328;Rating-signs;2022.2.4;60.05814829797971
Sign_Stimuli/Stim2VCM.mp4;Sign_Stimuli/Stim2M.mp4;0;48;48;48;;;;['5'];[2.8570106999832205];['5'];[3.362746700004209];None;;;;hns001;1;2022-11-15_13h43.10.328;Rating-signs;2022.2.4;60.05814829797971
Sign_Stimuli/Stim3SCF.mp4;Sign_Stimuli/Stim3F.mp4;0;49;49;49;;;;['1'];[2.1790284999879077];['1'];[3.19942320001428];None;;;;hns001;1;2022-11-15_13h43.10.328;Rating-signs;2022.2.4;60.05814829797971
Sign_Stimuli/Stim1VCF.mp4;Sign_Stimuli/Stim3VCF.mp4;0;50;50;50;;;;['2'];[3.7817000999930315];['2'];[2.147151000011945];None;;;;hns001;1;2022-11-15_13h43.10.328;Rating-signs;2022.2.4;60.05814829797971
Sign_Stimuli/Stim3VCM.mp4;Sign_Stimuli/Stim1VCF.mp4;0;51;51;51;;;;['3'];[1.4650793000182603];['2'];[9.567249200015794];None;;;;hns001;1;2022-11-15_13h43.10.328;Rating-signs;2022.2.4;60.05814829797971
Sign_Stimuli/Stim1SCM.mp4;Sign_Stimuli/Stim2VCM.mp4;0;52;52;52;;;;['1'];[0.8805490999948233];['1'];[2.0846748999902047];None;;;;hns001;1;2022-11-15_13h43.10.328;Rating-signs;2022.2.4;60.05814829797971
Sign_Stimuli/Stim2VCF.mp4;Sign_Stimuli/Stim2SCM.mp4;0;53;53;53;;;;['1'];[1.7572274999984074];['1'];[3.731304299988551];None;;;;hns001;1;2022-11-15_13h43.10.328;Rating-signs;2022.2.4;60.05814829797971
Sign_Stimuli/Stim2VCF.mp4;Sign_Stimuli/Stim1M.mp4;0;54;54;54;;;;['1'];[1.2592566999956034];['1'];[3.9262332000071183];None;;;;hns001;1;2022-11-15_13h43.10.328;Rating-signs;2022.2.4;60.05814829797971
Sign_Stimuli/Stim3F.mp4;Sign_Stimuli/Stim2VCM.mp4;0;55;55;55;;;;['1'];[0.4388753000239376];['1'];[3.0747029000194743];None;;;;hns001;1;2022-11-15_13h43.10.328;Rating-signs;2022.2.4;60.05814829797971
Sign_Stimuli/Stim2F.mp4;Sign_Stimuli/Stim2M.mp4;0;56;56;56;;;;['7'];[3.7318824999965727];['7'];[1.3735950000118464];None;;;;hns001;1;2022-11-15_13h43.10.328;Rating-signs;2022.2.4;60.05814829797971
Sign_Stimuli/Stim2VCF.mp4;Sign_Stimuli/Stim1F.mp4;0;57;57;57;;;;['1'];[2.8520918999856804];['1'];[2.4904163999890443];None;;;;hns001;1;2022-11-15_13h43.10.328;Rating-signs;2022.2.4;60.05814829797971
Sign_Stimuli/Stim1SCM.mp4;Sign_Stimuli/Stim2SCF.mp4;0;58;58;58;;;;['1'];[1.4358248000207823];['2'];[4.74102899999707];None;;;;hns001;1;2022-11-15_13h43.10.328;Rating-signs;2022.2.4;60.05814829797971
Sign_Stimuli/Stim1M.mp4;Sign_Stimuli/Stim2M.mp4;0;59;59;59;;;;['1'];[0.835077600000659];['1'];[1.7325020999996923];None;;;;hns001;1;2022-11-15_13h43.10.328;Rating-signs;2022.2.4;60.05814829797971
Sign_Stimuli/Stim1VCM.mp4;Sign_Stimuli/Stim3M.mp4;0;60;60;60;;;;['2'];[2.070121700002346];['2'];[2.116259500005981];None;;;;hns001;1;2022-11-15_13h43.10.328;Rating-signs;2022.2.4;60.05814829797971
Sign_Stimuli/Stim1F.mp4;Sign_Stimuli/Stim3VCF.mp4;0;61;61;61;;;;['2'];[0.37138659998890944];['2'];[2.945985300000757];None;;;;hns001;1;2022-11-15_13h43.10.328;Rating-signs;2022.2.4;60.05814829797971
Sign_Stimuli/Stim2F.mp4;Sign_Stimuli/Stim1M.mp4;0;62;62;62;;;;['1'];[0.829200399981346];['1'];[2.108958700002404];None;;;;hns001;1;2022-11-15_13h43.10.328;Rating-signs;2022.2.4;60.05814829797971
Sign_Stimuli/Stim3F.mp4;Sign_Stimuli/Stim2SCM.mp4;0;63;63;63;;;;['1'];[5.394878200022504];['1'];[2.0540812000108417];None;;;;hns001;1;2022-11-15_13h43.10.328;Rating-signs;2022.2.4;60.05814829797971
Sign_Stimuli/Stim2SCM.mp4;Sign_Stimuli/Stim1F.mp4;0;64;64;64;;;;['3'];[2.6824073000170756];['2'];[3.19251439999789];None;;;;hns001;1;2022-11-15_13h43.10.328;Rating-signs;2022.2.4;60.05814829797971
Sign_Stimuli/Stim3F.mp4;Sign_Stimuli/Stim2VCF.mp4;0;65;65;65;;;;['1'];[2.04973530001007];['1'];[3.173336100007873];None;;;;hns001;1;2022-11-15_13h43.10.328;Rating-signs;2022.2.4;60.05814829797971
Sign_Stimuli/Stim3VCF.mp4;Sign_Stimuli/Stim2M.mp4;0;66;66;66;;;;['1'];[0.35470019999775104];['1'];[1.5967783999803942];None;;;;hns001;1;2022-11-15_13h43.10.328;Rating-signs;2022.2.4;60.05814829797971
Sign_Stimuli/Stim3SCM.mp4;Sign_Stimuli/Stim2M.mp4;0;67;67;67;;;;['4'];[0.22669630000018515];['2'];[5.311975199991139];None;;;;hns001;1;2022-11-15_13h43.10.328;Rating-signs;2022.2.4;60.05814829797971
Sign_Stimuli/Stim1SCM.mp4;Sign_Stimuli/Stim2SCM.mp4;0;68;68;68;;;;['1'];[1.3168054000125267];['1'];[3.0774226000066847];None;;;;hns001;1;2022-11-15_13h43.10.328;Rating-signs;2022.2.4;60.05814829797971
Sign_Stimuli/Stim2F.mp4;Sign_Stimuli/Stim2SCM.mp4;0;69;69;69;;;;['1'];[0.914672699989751];['1'];[2.033377299987478];None;;;;hns001;1;2022-11-15_13h43.10.328;Rating-signs;2022.2.4;60.05814829797971
Sign_Stimuli/Stim2SCM.mp4;Sign_Stimuli/Stim1M.mp4;0;70;70;70;;;;['3'];[4.35355180001352];['1'];[2.6111270999826957];None;;;;hns001;1;2022-11-15_13h43.10.328;Rating-signs;2022.2.4;60.05814829797971
Sign_Stimuli/Stim1F.mp4;Sign_Stimuli/Stim2F.mp4;0;71;71;71;;;;['1'];[2.7613462999870535];['1'];[2.1654289000143763];None;;;;hns001;1;2022-11-15_13h43.10.328;Rating-signs;2022.2.4;60.05814829797971
Sign_Stimuli/Stim3SCM.mp4;Sign_Stimuli/Stim3SCF.mp4;0;72;72;72;;;;['6'];[6.465597800008254];['5'];[1.9114728999848012];None;;;;hns001;1;2022-11-15_13h43.10.328;Rating-signs;2022.2.4;60.05814829797971
Sign_Stimuli/Stim3VCF.mp4;Sign_Stimuli/Stim2SCF.mp4;0;73;73;73;;;;['2'];[2.186106799985282];['1'];[2.4617404000018723];None;;;;hns001;1;2022-11-15_13h43.10.328;Rating-signs;2022.2.4;60.05814829797971
Sign_Stimuli/Stim1SCF.mp4;Sign_Stimuli/Stim2VCM.mp4;0;74;74;74;;;;['1'];[1.5192496000090614];['1'];[3.5960156000219285];None;;;;hns001;1;2022-11-15_13h43.10.328;Rating-signs;2022.2.4;60.05814829797971
Sign_Stimuli/Stim3VCF.mp4;Sign_Stimuli/Stim1SCM.mp4;0;75;75;75;;;;['2'];[2.408078000007663];['2'];[2.917289399978472];None;;;;hns001;1;2022-11-15_13h43.10.328;Rating-signs;2022.2.4;60.05814829797971
Sign_Stimuli/Stim1F.mp4;Sign_Stimuli/Stim1VCF.mp4;0;76;76;76;;;;['6'];[3.836573299980955];['5'];[3.161545600014506];None;;;;hns001;1;2022-11-15_13h43.10.328;Rating-signs;2022.2.4;60.05814829797971
Sign_Stimuli/Stim1M.mp4;Sign_Stimuli/Stim3VCM.mp4;0;77;77;77;;;;['2'];[0.09501879999879748];['2'];[2.3289182000153232];None;;;;hns001;1;2022-11-15_13h43.10.328;Rating-signs;2022.2.4;60.05814829797971
Sign_Stimuli/Stim3SCF.mp4;Sign_Stimuli/Stim1VCF.mp4;0;78;78;78;;;;['1'];[0.4506009000178892];['1'];[1.5840339999995194];None;;;;hns001;1;2022-11-15_13h43.10.328;Rating-signs;2022.2.4;60.05814829797971
Sign_Stimuli/Stim3VCF.mp4;Sign_Stimuli/Stim1SCF.mp4;0;79;79;79;;;;['1'];[0.5375919000071008];['2'];[2.764949300006265];None;;;;hns001;1;2022-11-15_13h43.10.328;Rating-signs;2022.2.4;60.05814829797971
Sign_Stimuli/Stim1SCM.mp4;Sign_Stimuli/Stim1F.mp4;0;80;80;80;;;;['1'];[0.8826096999982838];['1'];[2.3482314000139013];None;;;;hns001;1;2022-11-15_13h43.10.328;Rating-signs;2022.2.4;60.05814829797971
Sign_Stimuli/Stim2VCM.mp4;Sign_Stimuli/Stim1M.mp4;0;81;81;81;;;;['1'];[2.703065300011076];['1'];[1.502572900004452];None;;;;hns001;1;2022-11-15_13h43.10.328;Rating-signs;2022.2.4;60.05814829797971
Sign_Stimuli/Stim1M.mp4;Sign_Stimuli/Stim1SCM.mp4;0;82;82;82;;;;['1'];[0.7763649999978952];['1'];[2.4708009000169113];None;;;;hns001;1;2022-11-15_13h43.10.328;Rating-signs;2022.2.4;60.05814829797971
Sign_Stimuli/Stim1M.mp4;Sign_Stimuli/Stim3M.mp4;0;83;83;83;;;;['1'];[0.5660028000129387];['1'];[2.8769399999873713];None;;;;hns001;1;2022-11-15_13h43.10.328;Rating-signs;2022.2.4;60.05814829797971
Sign_Stimuli/Stim3F.mp4;Sign_Stimuli/Stim1VCM.mp4;0;84;84;84;;;;['2'];[1.279209100001026];['1'];[1.2862479999894276];None;;;;hns001;1;2022-11-15_13h43.10.328;Rating-signs;2022.2.4;60.05814829797971
Sign_Stimuli/Stim2SCF.mp4;Sign_Stimuli/Stim1VCM.mp4;0;85;85;85;;;;['2'];[2.1894780000147875];['1'];[1.796505900012562];None;;;;hns001;1;2022-11-15_13h43.10.328;Rating-signs;2022.2.4;60.05814829797971
Sign_Stimuli/Stim3SCM.mp4;Sign_Stimuli/Stim2VCF.mp4;0;86;86;86;;;;['3'];[1.2717853999929503];['1'];[4.658743100007996];None;;;;hns001;1;2022-11-15_13h43.10.328;Rating-signs;2022.2.4;60.05814829797971
Sign_Stimuli/Stim1SCM.mp4;Sign_Stimuli/Stim3SCM.mp4;0;87;87;87;;;;['1'];[0.5847457000054419];['2'];[4.382015200011665];None;;;;hns001;1;2022-11-15_13h43.10.328;Rating-signs;2022.2.4;60.05814829797971
Sign_Stimuli/Stim2SCM.mp4;Sign_Stimuli/Stim1SCF.mp4;0;88;88;88;;;;['2'];[4.241952000011224];['1'];[2.750491500017233];None;;;;hns001;1;2022-11-15_13h43.10.328;Rating-signs;2022.2.4;60.05814829797971
Sign_Stimuli/Stim2VCF.mp4;Sign_Stimuli/Stim2M.mp4;0;89;89;89;;;;['6'];[3.718297799990978];['5'];[1.9146153000183403];None;;;;hns001;1;2022-11-15_13h43.10.328;Rating-signs;2022.2.4;60.05814829797971
Sign_Stimuli/Stim3F.mp4;Sign_Stimuli/Stim2SCF.mp4;0;90;90;90;;;;['3'];[1.8385944000037853];['2'];[2.992200100008631];None;;;;hns001;1;2022-11-15_13h43.10.328;Rating-signs;2022.2.4;60.05814829797971
Sign_Stimuli/Stim3SCM.mp4;Sign_Stimuli/Stim2F.mp4;0;91;91;91;;;;['3'];[10.198727199982386];['4'];[2.527331299992511];None;;;;hns001;1;2022-11-15_13h43.10.328;Rating-signs;2022.2.4;60.05814829797971
Sign_Stimuli/Stim1VCF.mp4;Sign_Stimuli/Stim2SCM.mp4;0;92;92;92;;;;['2'];[0.5635441000049468];['1'];[1.6735500000067987];None;;;;hns001;1;2022-11-15_13h43.10.328;Rating-signs;2022.2.4;60.05814829797971
Sign_Stimuli/Stim3SCF.mp4;Sign_Stimuli/Stim2F.mp4;0;93;93;93;;;;['3'];[0.9881821000017226];['4'];[1.6191380999807734];None;;;;hns001;1;2022-11-15_13h43.10.328;Rating-signs;2022.2.4;60.05814829797971
Sign_Stimuli/Stim3F.mp4;Sign_Stimuli/Stim3M.mp4;0;94;94;94;;;;['7'];[2.168310199980624];['7'];[1.495320799993351];None;;;;hns001;1;2022-11-15_13h43.10.328;Rating-signs;2022.2.4;60.05814829797971
Sign_Stimuli/Stim2M.mp4;Sign_Stimuli/Stim1F.mp4;0;95;95;95;;;;['1'];[1.3020915999950375];['1'];[1.2035785000189207];None;;;;hns001;1;2022-11-15_13h43.10.328;Rating-signs;2022.2.4;60.05814829797971
Sign_Stimuli/Stim3SCF.mp4;Sign_Stimuli/Stim2VCF.mp4;0;96;96;96;;;;['3'];[0.9843508000194561];['4'];[1.9756680999998935];None;;;;hns001;1;2022-11-15_13h43.10.328;Rating-signs;2022.2.4;60.05814829797971
Sign_Stimuli/Stim3SCF.mp4;Sign_Stimuli/Stim2VCM.mp4;0;97;97;97;;;;['3'];[1.6906359999848064];['3'];[2.2040589999814983];None;;;;hns001;1;2022-11-15_13h43.10.328;Rating-signs;2022.2.4;60.05814829797971
Sign_Stimuli/Stim1SCF.mp4;Sign_Stimuli/Stim2F.mp4;0;98;98;98;;;;['2'];[0.7525131000147667];['2'];[2.5045970999926794];None;;;;hns001;1;2022-11-15_13h43.10.328;Rating-signs;2022.2.4;60.05814829797971
Sign_Stimuli/Stim3VCM.mp4;Sign_Stimuli/Stim3SCM.mp4;0;99;99;99;;;;['2'];[8.253831400012132];['1'];[3.786212999984855];None;;;;hns001;1;2022-11-15_13h43.10.328;Rating-signs;2022.2.4;60.05814829797971
Sign_Stimuli/Stim3SCF.mp4;Sign_Stimuli/Stim1M.mp4;0;100;100;100;;;;['1'];[0.679134999983944];['1'];[2.969665000011446];None;;;;hns001;1;2022-11-15_13h43.10.328;Rating-signs;2022.2.4;60.05814829797971
Sign_Stimuli/Stim3SCF.mp4;Sign_Stimuli/Stim2SCM.mp4;0;101;101;101;;;;['1'];[0.5639320000191219];['1'];[2.9908231000008527];None;;;;hns001;1;2022-11-15_13h43.10.328;Rating-signs;2022.2.4;60.05814829797971
Sign_Stimuli/Stim1SCF.mp4;Sign_Stimuli/Stim3M.mp4;0;102;102;102;;;;['1'];[1.6231857000093441];['1'];[2.0934017000254244];None;;;;hns001;1;2022-11-15_13h43.10.328;Rating-signs;2022.2.4;60.05814829797971
Sign_Stimuli/Stim1VCM.mp4;Sign_Stimuli/Stim2VCM.mp4;0;103;103;103;;;;['1'];[1.1288641999999527];['1'];[2.3829410999896936];None;;;;hns001;1;2022-11-15_13h43.10.328;Rating-signs;2022.2.4;60.05814829797971
Sign_Stimuli/Stim2VCM.mp4;Sign_Stimuli/Stim2SCM.mp4;0;104;104;104;;;;['2'];[1.239524699980393];['1'];[2.814773799997056];None;;;;hns001;1;2022-11-15_13h43.10.328;Rating-signs;2022.2.4;60.05814829797971
Sign_Stimuli/Stim2SCF.mp4;Sign_Stimuli/Stim2F.mp4;0;105;105;105;;;;['2'];[1.8761892000038642];['1'];[1.7793882999976631];None;;;;hns001;1;2022-11-15_13h43.10.328;Rating-signs;2022.2.4;60.05814829797971
Sign_Stimuli/Stim3M.mp4;Sign_Stimuli/Stim2M.mp4;0;106;106;106;;;;['1'];[2.1958336000097916];['1'];[3.29666009999346];None;;;;hns001;1;2022-11-15_13h43.10.328;Rating-signs;2022.2.4;60.05814829797971
Sign_Stimuli/Stim2VCF.mp4;Sign_Stimuli/Stim1SCF.mp4;0;107;107;107;;;;['2'];[2.294401999999536];['1'];[2.2492257000121754];None;;;;hns001;1;2022-11-15_13h43.10.328;Rating-signs;2022.2.4;60.05814829797971
Sign_Stimuli/Stim2VCF.mp4;Sign_Stimuli/Stim1VCF.mp4;0;108;108;108;;;;['1'];[6.299628999986453];['1'];[6.730496400006814];None;;;;hns001;1;2022-11-15_13h43.10.328;Rating-signs;2022.2.4;60.05814829797971
Sign_Stimuli/Stim2SCM.mp4;Sign_Stimuli/Stim3M.mp4;0;109;109;109;;;;['1'];[0.6771622999804094];['1'];[1.5396027000097092];None;;;;hns001;1;2022-11-15_13h43.10.328;Rating-signs;2022.2.4;60.05814829797971
Sign_Stimuli/Stim3SCM.mp4;Sign_Stimuli/Stim2VCM.mp4;0;110;110;110;;;;['3'];[1.3027134999865666];['2'];[0.9753195000230335];None;;;;hns001;1;2022-11-15_13h43.10.328;Rating-signs;2022.2.4;60.05814829797971
Sign_Stimuli/Stim2SCF.mp4;Sign_Stimuli/Stim1VCF.mp4;0;111;111;111;;;;['2'];[0.27896249998593703];['1'];[3.2779854000255];None;;;;hns001;1;2022-11-15_13h43.10.328;Rating-signs;2022.2.4;60.05814829797971
Sign_Stimuli/Stim3VCM.mp4;Sign_Stimuli/Stim2VCF.mp4;0;112;112;112;;;;['1'];[0.5493133999989368];['1'];[1.3591854000114836];None;;;;hns001;1;2022-11-15_13h43.10.328;Rating-signs;2022.2.4;60.05814829797971
Sign_Stimuli/Stim1VCM.mp4;Sign_Stimuli/Stim1M.mp4;0;113;113;113;;;;['6'];[3.7182169999869075];['5'];[3.1081623999925796];None;;;;hns001;1;2022-11-15_13h43.10.328;Rating-signs;2022.2.4;60.05814829797971
Sign_Stimuli/Stim2F.mp4;Sign_Stimuli/Stim3F.mp4;0;114;114;114;;;;['1'];[3.6350286999950185];['1'];[1.102592100010952];None;;;;hns001;1;2022-11-15_13h43.10.328;Rating-signs;2022.2.4;60.05814829797971
Sign_Stimuli/Stim3M.mp4;Sign_Stimuli/Stim3SCF.mp4;0;115;115;115;;;;['1'];[1.4788266000105068];['1'];[1.7523326000082307];None;;;;hns001;1;2022-11-15_13h43.10.328;Rating-signs;2022.2.4;60.05814829797971
Sign_Stimuli/Stim3VCF.mp4;Sign_Stimuli/Stim2F.mp4;0;116;116;116;;;;['1'];[0.0036031999916303903];['1'];[1.3553557000122964];None;;;;hns001;1;2022-11-15_13h43.10.328;Rating-signs;2022.2.4;60.05814829797971
Sign_Stimuli/Stim1VCM.mp4;Sign_Stimuli/Stim3SCM.mp4;0;117;117;117;;;;['1'];[0.5556581999990158];['1'];[2.210193699982483];None;;;;hns001;1;2022-11-15_13h43.10.328;Rating-signs;2022.2.4;60.05814829797971
Sign_Stimuli/Stim3M.mp4;Sign_Stimuli/Stim3SCM.mp4;0;118;118;118;;;;['1'];[0.5408343000162859];['1'];[2.649695200001588];None;;;;hns001;1;2022-11-15_13h43.10.328;Rating-signs;2022.2.4;60.05814829797971
Sign_Stimuli/Stim1VCM.mp4;Sign_Stimuli/Stim1SCF.mp4;0;119;119;119;;;;['3'];[2.7180613000236917];['2'];[1.8228638999862596];None;;;;hns001;1;2022-11-15_13h43.10.328;Rating-signs;2022.2.4;60.05814829797971
Sign_Stimuli/Stim2F.mp4;Sign_Stimuli/Stim3VCM.mp4;0;120;120;120;;;;['2'];[2.7782930999819655];['1'];[2.2273483999888413];None;;;;hns001;1;2022-11-15_13h43.10.328;Rating-signs;2022.2.4;60.05814829797971
Sign_Stimuli/Stim1F.mp4;Sign_Stimuli/Stim3VCM.mp4;0;121;121;121;;;;['3'];[0.6466314000135753];['2'];[3.6732921000220813];None;;;;hns001;1;2022-11-15_13h43.10.328;Rating-signs;2022.2.4;60.05814829797971
Sign_Stimuli/Stim2VCF.mp4;Sign_Stimuli/Stim2VCM.mp4;0;122;122;122;;;;['6'];[7.401760100008687];['6'];[1.722385100001702];None;;;;hns001;1;2022-11-15_13h43.10.328;Rating-signs;2022.2.4;60.05814829797971
Sign_Stimuli/Stim3SCM.mp4;Sign_Stimuli/Stim3VCF.mp4;0;123;123;123;;;;['1'];[0.877795700012939];['1'];[3.5747397000086494];None;;;;hns001;1;2022-11-15_13h43.10.328;Rating-signs;2022.2.4;60.05814829797971
Sign_Stimuli/Stim3VCF.mp4;Sign_Stimuli/Stim1VCM.mp4;0;124;124;124;;;;['2'];[0.834519600000931];['1'];[1.2308804000203963];None;;;;hns001;1;2022-11-15_13h43.10.328;Rating-signs;2022.2.4;60.05814829797971
Sign_Stimuli/Stim2VCF.mp4;Sign_Stimuli/Stim1SCM.mp4;0;125;125;125;;;;['1'];[0.4108808000164572];['1'];[1.475350199994864];None;;;;hns001;1;2022-11-15_13h43.10.328;Rating-signs;2022.2.4;60.05814829797971
Sign_Stimuli/Stim2VCM.mp4;Sign_Stimuli/Stim2F.mp4;0;126;126;126;;;;['6'];[4.904607700009365];['5'];[1.7912729000090621];None;;;;hns001;1;2022-11-15_13h43.10.328;Rating-signs;2022.2.4;60.05814829797971
Sign_Stimuli/Stim2F.mp4;Sign_Stimuli/Stim3M.mp4;0;127;127;127;;;;['1'];[0.9594540999969468];['1'];[2.5506379999860656];None;;;;hns001;1;2022-11-15_13h43.10.328;Rating-signs;2022.2.4;60.05814829797971
Sign_Stimuli/Stim1VCF.mp4;Sign_Stimuli/Stim1SCF.mp4;0;128;128;128;;;;['2'];[1.0930139000120107];['1'];[0.8787055000138935];None;;;;hns001;1;2022-11-15_13h43.10.328;Rating-signs;2022.2.4;60.05814829797971
Sign_Stimuli/Stim1SCM.mp4;Sign_Stimuli/Stim1VCM.mp4;0;129;129;129;;;;['2'];[6.500893699994776];['1'];[3.43982099997811];None;;;;hns001;1;2022-11-15_13h43.10.328;Rating-signs;2022.2.4;60.05814829797971
Sign_Stimuli/Stim2F.mp4;Sign_Stimuli/Stim1SCM.mp4;0;130;130;130;;;;['2'];[2.0802106999908574];['1'];[0.9624599000089802];None;;;;hns001;1;2022-11-15_13h43.10.328;Rating-signs;2022.2.4;60.05814829797971
Sign_Stimuli/Stim3F.mp4;Sign_Stimuli/Stim1SCF.mp4;0;131;131;131;;;;['2'];[0.7055153000110295];['1'];[1.5743918000080157];None;;;;hns001;1;2022-11-15_13h43.10.328;Rating-signs;2022.2.4;60.05814829797971
Sign_Stimuli/Stim1SCF.mp4;Sign_Stimuli/Stim3VCM.mp4;0;132;132;132;;;;['2'];[0.8016098999942187];['1'];[1.121321100014029];None;;;;hns001;1;2022-11-15_13h43.10.328;Rating-signs;2022.2.4;60.05814829797971
Sign_Stimuli/Stim2M.mp4;Sign_Stimuli/Stim2SCM.mp4;0;133;133;133;;;;['1'];[0.4353174999996554];['1'];[1.8205886000068858];None;;;;hns001;1;2022-11-15_13h43.10.328;Rating-signs;2022.2.4;60.05814829797971
Sign_Stimuli/Stim1SCM.mp4;Sign_Stimuli/Stim1SCF.mp4;0;134;134;134;;;;['7'];[3.54116019999492];['7'];[0.9019643000210635];None;;;;hns001;1;2022-11-15_13h43.10.328;Rating-signs;2022.2.4;60.05814829797971
Sign_Stimuli/Stim2VCF.mp4;Sign_Stimuli/Stim1VCM.mp4;0;135;135;135;;;;['1'];[1.0072504999989178];['1'];[1.2361746999958996];None;;;;hns001;1;2022-11-15_13h43.10.328;Rating-signs;2022.2.4;60.05814829797971
Sign_Stimuli/Stim1F.mp4;Sign_Stimuli/Stim2VCM.mp4;0;136;136;136;;;;['1'];[0.36762129998533055];['1'];[3.9310629999963567];None;;;;hns001;1;2022-11-15_13h43.10.328;Rating-signs;2022.2.4;60.05814829797971
Sign_Stimuli/Stim2SCM.mp4;Sign_Stimuli/Stim1VCM.mp4;0;137;137;137;;;;['2'];[0.07902810000814497];['1'];[1.1950394999876153];None;;;;hns001;1;2022-11-15_13h43.10.328;Rating-signs;2022.2.4;60.05814829797971
Sign_Stimuli/Stim1F.mp4;Sign_Stimuli/Stim1M.mp4;0;138;138;138;;;;['6'];[3.8540471000014804];['5'];[1.2855102000175975];None;;;;hns001;1;2022-11-15_13h43.10.328;Rating-signs;2022.2.4;60.05814829797971
Sign_Stimuli/Stim1VCF.mp4;Sign_Stimuli/Stim1VCM.mp4;0;139;139;139;;;;['7'];[4.048633500002325];['7'];[0.6978946999879554];None;;;;hns001;1;2022-11-15_13h43.10.328;Rating-signs;2022.2.4;60.05814829797971
Sign_Stimuli/Stim1F.mp4;Sign_Stimuli/Stim3M.mp4;0;140;140;140;;;;['1'];[3.322343000007095];['1'];[1.3481668999884278];None;;;;hns001;1;2022-11-15_13h43.10.328;Rating-signs;2022.2.4;60.05814829797971
Sign_Stimuli/Stim1SCF.mp4;Sign_Stimuli/Stim1M.mp4;0;141;141;141;;;;['1'];[0.8276641000120435];['2'];[1.8125481999886688];None;;;;hns001;1;2022-11-15_13h43.10.328;Rating-signs;2022.2.4;60.05814829797971
Sign_Stimuli/Stim2VCM.mp4;Sign_Stimuli/Stim2SCF.mp4;0;142;142;142;;;;['1'];[2.0462114999827463];['1'];[2.2119327999826055];None;;;;hns001;1;2022-11-15_13h43.10.328;Rating-signs;2022.2.4;60.05814829797971
Sign_Stimuli/Stim2SCF.mp4;Sign_Stimuli/Stim3SCM.mp4;0;143;143;143;;;;['1'];[1.0787853999936488];['1'];[1.7712822000030428];None;;;;hns001;1;2022-11-15_13h43.10.328;Rating-signs;2022.2.4;60.05814829797971
Sign_Stimuli/Stim1VCF.mp4;Sign_Stimuli/Stim3F.mp4;0;144;144;144;;;;['2'];[0.5414818999997806];['1'];[1.581921400007559];None;;;;hns001;1;2022-11-15_13h43.10.328;Rating-signs;2022.2.4;60.05814829797971
Sign_Stimuli/Stim2M.mp4;Sign_Stimuli/Stim1VCF.mp4;0;145;145;145;;;;['2'];[0.3651870999892708];['1'];[0.5388316999888048];None;;;;hns001;1;2022-11-15_13h43.10.328;Rating-signs;2022.2.4;60.05814829797971
Sign_Stimuli/Stim2M.mp4;Sign_Stimuli/Stim3VCM.mp4;0;146;146;146;;;;['2'];[1.6159060999925714];['1'];[0.7532626999891363];None;;;;hns001;1;2022-11-15_13h43.10.328;Rating-signs;2022.2.4;60.05814829797971
Sign_Stimuli/Stim2SCM.mp4;Sign_Stimuli/Stim2SCF.mp4;0;147;147;147;;;;['6'];[7.224994799995329];['5'];[0.7151974000153132];None;;;;hns001;1;2022-11-15_13h43.10.328;Rating-signs;2022.2.4;60.05814829797971
Sign_Stimuli/Stim2VCM.mp4;Sign_Stimuli/Stim3VCF.mp4;0;148;148;148;;;;['1'];[1.911220100009814];['1'];[0.9218404999992345];None;;;;hns001;1;2022-11-15_13h43.10.328;Rating-signs;2022.2.4;60.05814829797971
Sign_Stimuli/Stim2M.mp4;Sign_Stimuli/Stim3SCF.mp4;0;149;149;149;;;;['2'];[1.4397516000026371];['2'];[1.3559455000213347];None;;;;hns001;1;2022-11-15_13h43.10.328;Rating-signs;2022.2.4;60.05814829797971
Sign_Stimuli/Stim1SCF.mp4;Sign_Stimuli/Stim2SCF.mp4;0;150;150;150;;;;['1'];[0.17115939999348484];['1'];[0.49091190000763163];None;;;;hns001;1;2022-11-15_13h43.10.328;Rating-signs;2022.2.4;60.05814829797971
Sign_Stimuli/Stim1VCM.mp4;Sign_Stimuli/Stim2M.mp4;0;151;151;151;;;;['1'];[2.171793000015896];['1'];[0.47509389999322593];None;;;;hns001;1;2022-11-15_13h43.10.328;Rating-signs;2022.2.4;60.05814829797971
Sign_Stimuli/Stim3F.mp4;Sign_Stimuli/Stim1M.mp4;0;152;152;152;;;;['1'];[2.1131876000144985];['1'];[0.542729100008728];None;;;;hns001;1;2022-11-15_13h43.10.328;Rating-signs;2022.2.4;60.05814829797971
;;;;;;;;;;;;;;0.010605699993902817;space;8.725259500002721;hns001;1;2022-11-15_13h43.10.328;Rating-signs;2022.2.4;60.05814829797971
réponse : signe non signe pas reconnu;;;;;;;;;;;;;;;;;;;;;;
